Folder: hidrorretentor/3 - MANUSCRITO/1-MARKDOWN/3-SCRIPTS/data

Note: README.md
# Núcleo hidrorretentor orgânico como substrato para bioengenharia dos solos

## Resumo
Este repositório contém os dados, scripts e manuscritos relacionados ao estudo de núcleos hidrorretentores orgânicos à base de *Typha domingensis* para bioengenharia de solos.

**Objetivo:** Avaliar um núcleo hidrorretentor orgânico produzido com fibras e resíduos de *Typha domingensis* como substrato para cultivo de rúcula (*Eruca sativa*), integrando caracterização tecnológica, triagem biológica e desempenho em microcosmo.

## Conteúdo

- `1 - OLD/`: Versões antigas e dados legados.
- `2 - DADOS/`: Dados brutos experimentais (SPSS, CSV, etc.).
- `3 - MANUSCRITO/`: Código fonte do manuscrito (Markdown, scripts de conversão, bibliografia).
- `5 - FIGURAS/`: Imagens e figuras geradas para o artigo.

## Reproducibilidade

Os scripts de análise estão localizados em `3 - MANUSCRITO/1-MARKDOWN/3-SCRIPTS/`.

## Licença

Este trabalho está licenciado sob uma licença Creative Commons Attribution 4.0 International License (CC-BY 4.0).

File: tga_typha.csv
temp;mass;dtg
25,0;99,6956480310122;0,6417963771260632
28,86266094420601;99,36953110774114;0,37717141474466587
32,72532188841202;99,22186835357978;0,24902735236139506
36,587982832618025;98,89198806764904;0,8420067364762218
40,45064377682404;98,59341517186296;0,5158810758137378
44,31330472103004;98,37567926676076;0,6984324675096332
48,17596566523605;98,1003552219544;0,39165981806874584
52,03862660944206;97,81609821669079;0,6446639501111662
55,90128755364807;97,63310522042792;0,6031849133243128
59,763948497854074;97,27924054502034;0,7024360800357243
63,62660944206009;97,02353433366984;0,3732845976244903
67,4892703862661;96,79492234525632;0,5698950386638302
71,3519313304721;96,51086760208663;0,9102198494864666
75,21459227467811;96,21176346844726;0,6976976556646974
79,07725321888412;95,98671540800454;0,7545160525197048
82,93991416309012;95,80056501413928;1,5220232083472496
86,80257510729614;95,52101111124907;0,44569850060845795
90,66523605150215;95,20686237042479;0,8624376494754671
94,52789699570815;95,00962206260643;0,47771048902909286
98,39055793991416;94,74704057481485;0,6024227973443885
102,25321888412017;94,52295020156305;0,9439146299126833
106,11587982832617;94,23895459745707;0,27039377430817524
109,97854077253218;93,96218048293254;0,145744380396593
113,8412017167382;93,64843390221692;0,526619593494928
117,7038626609442;93,37289070014803;1,183658666686327
121,56652360515021;93,28098485670169;-0,11399873708100472
125,42918454935622;93,18864284033124;0,2180320776037803
129,29184549356222;93,13871231035985;0,35006957491084734
133,15450643776825;93,2175872440228;-0,8151507035354655
137,01716738197425;92,94363560209803;0,7474530829630055
140,87982832618025;92,9668792452442;0,5842908028789395
144,74248927038627;92,92059586551858;0,3854710432712949
148,60515021459227;92,86282572036448;-0,25244880043388207
152,46781115879827;92,76518338478158;0,2155592458522193
156,3304721030043;92,73839750809557;0,33003628521676376
160,1931330472103;92,62823540346977;0,13835589459979758
164,0557939914163;92,51221830418768;0,12844623862598326
167,91845493562232;92,5470888280829;-0,28282869408258193
171,78111587982832;92,42048237673283;0,6431956509321424
175,64377682403432;92,35805989239326;0,19013221925149537
179,50643776824035;92,35274981778409;0,19309918818095184
183,36909871244634;92,22450012918104;-0,09119371304770141
187,23175965665234;92,14688397970828;0,8646739237232026
191,09442060085837;92,09427586875395;0,513219319356395
194,95708154506437;91,94876740022188;-0,12958392271933405
198,81974248927037;91,98616013206185;0,3166656970336845
202,6824034334764;91,75253011879117;0,25511051658916983
206,5450643776824;91,8042286370252;-0,023708649636873247
210,4077253218884;91,49083075283087;0,010409882310895568
214,27038626609442;91,36298010455205;0,11979977211119319
218,13304721030042;91,23560674138069;0,8014813975282209
221,99570815450645;91,02237719211277;0,5117553153668553
225,85836909871244;90,79566908501808;1,2613056450990712
229,72103004291844;90,45652995354604;0,7580923729593536
233,58369098712447;90,22625168273161;0,4173323746368851
237,44635193133047;89,90967659573094;1,2224744188239356
241,30901287553647;89,61221728204492;1,037831063610497
245,1716738197425;89,0872820449326;1,5014879723183583
249,0343347639485;88,64809372087315;1,2533393992644193
252,8969957081545;87,95481698287158;1,4776188710627025
256,7596566523605;87,28636984250316;1,807274490090549
260,6223175965665;86,66724696513499;2,5737837645768025
264,48497854077254;85,73013654620986;2,216567516210759
268,3476394849786;84,93415242452227;1,9820851176721987
272,21030042918454;83,82749665092793;2,1200039104397916
276,0729613733905;82,60979657748811;2,98808278200859
279,93562231759654;81,48357374590195;3,2352297583197043
283,79828326180257;80,22507893652377;2,506525017606833
287,6609442060086;79,0519855036153;3,3488634021059482
291,52360515021456;77,63051844102306;3,4286530185414676
295,3862660944206;76,43281924375994;3,21222756631947
299,2489270386266;75,0902034250946;2,047059311007544
303,1115879828326;73,85111243704632;2,626000140353142
306,9742489270386;72,51801107635741;4,260727864568281
310,83690987124464;71,27792873678898;3,778502145914473
314,6995708154506;70,21221586049728;2,812468510485431
318,56223175965664;68,82345738590249;3,588955448112614
322,42489270386267;67,64688853173331;4,056148528738888
326,28755364806864;66,28060740459863;3,3948108373288477
330,15021459227466;64,87752250413905;3,568876182833449
334,0128755364807;63,309715568209846;5,517363557146382
337,87553648068666;61,41382130807243;5,469470007657442
341,7381974248927;59,270492160494484;5,834476988302519
345,6008583690987;56,99242749927519;6,817075029188295
349,4635193133047;54,21419359497447;7,334195244648782
353,3261802575107;51,214781920734865;8,695182251902338
357,18884120171674;47,92240620487111;8,18239407361876
361,0515021459227;44,67084062017237;8,62223284504033
364,91416309012874;41,39443929475181;7,3764317682445935
368,77682403433477;38,54767852279218;7,582069161373433
372,63948497854074;35,73078480995983;6,1167464080537215
376,50214592274676;33,35844655187279;5,326240622644924
380,3648068669528;31,39139348251462;4,826175245500046
384,22746781115876;29,77434725663128;3,3091121690336323
388,0901287553648;28,455418266066342;3,114991443212922
391,9527896995708;27,407350604684737;2,169362436358373
395,8154506437768;26,618397329214904;1,4765299428498757
399,6781115879828;26,005735067613635;1,417894388246168
403,54077253218884;25,54473047115586;1,3085529163382503
407,40343347639487;25,133567497078367;0,6050563823287725
411,26609442060084;24,799050395305233;0,861021689360193
415,12875536480686;24,53950524708272;0,0508313946178518
418,9914163090129;24,45221417135763;0,2371485295898168
422,85407725321886;24,268254453498688;-0,09348202447691634
426,7167381974249;24,12204256592786;0,251445781312043
430,5793991416309;23,984873740102866;0,30099732724027106
434,4420600858369;23,913149957101417;0,0504177127095673
438,3047210300429;23,81920512339227;0,44453533752335517
442,16738197424894;23,771041292507928;0,41947255309139564
446,0300429184549;23,668262568385632;0,05315348850757573
449,89270386266094;23,616103883558445;0,7218882302739793
453,75536480686696;23,543684457427997;0,6932136590249804
457,61802575107293;23,49897622375589;0,6341811357693672
461,48068669527896;23,514634571994428;-0,032504970734237304
465,343347639485;23,32097030418719;0,15671487731099276
469,20600858369096;23,30841431257974;-0,4405334166378694
473,068669527897;23,24132322624442;0,019191165980316782
476,931330472103;23,144399143312945;0,1896415040458166
480,793991416309;23,02466090051703;-0,4423038106784638
484,656652360515;23,060257207801993;-0,11119049312247498
488,51931330472104;23,038300592399835;0,07185263154319443
492,381974248927;22,91102208494789;-0,3848452024432092
496,24463519313304;22,958160296342598;0,43434258873601195
500,10729613733906;22,785267680289493;0,5439156162256431
503,96995708154503;22,839706994150422;0,5874156804328656
507,83261802575106;22,8037569740117;0,051163337679156484
511,6952789699571;22,70415704128204;0,3391840682482794
515,5579399141631;22,70174251563816;-0,3150093745960447
519,4206008583691;22,533393857122338;0,15529908632908374
523,2832618025751;22,612822808292353;0,4756180554956124
527,145922746781;22,504863428636828;-0,5868437820795513
531,008583690987;22,440340472723907;0,12095402400401412
534,8712446351931;22,339723246595526;0,5996642200579316
538,7339055793991;22,240544658038033;-0,15930838737197917
542,5965665236051;22,298358606305346;-0,4647610074937525
546,4592274678112;22,17849001947676;0,196559520773949
550,3218884120172;22,135123673009332;-0,3099909199711348
554,1845493562232;22,08224566313594;-0,17992292329871873
558,0472103004291;22,047388014919225;0,1934342333792749
561,9098712446352;21,884369416291353;-0,07224173565866465
565,7725321888412;21,901840748806055;0,4570101456792486
569,6351931330472;21,74748295243269;0,13661904671627312
573,4978540772532;21,73476907291493;0,5467558445559462
577,3605150214593;21,773251556391724;-0,3820249363017858
581,2231759656652;21,596459307064762;0,38973727084878007
585,0858369098712;21,627906720816526;0,9107120169251992
588,9484978540772;21,591297661248696;0,10280403828922147
592,8111587982833;21,61071668743907;0,4493991473984238
596,6738197424893;21,436577840737183;0,06456678886770817
600,5364806866953;21,39828341374609;0,24077997551470887
604,3991416309012;21,33545824440816;0,5008919089777919
608,2618025751073;21,334638914451066;-0,14661404085384078
612,1244635193133;21,28105577878644;0,4691277025018792
615,9871244635193;21,241139735401823;0,008644163445019615
619,8497854077253;21,130751160771716;-0,5110058679237994
623,7124463519314;21,107648115179845;0,24258371276307145
627,5751072961373;21,10220436549909;-0,12367728406387002
631,4377682403433;20,97046676025093;-0,15732166631440947
635,3004291845493;20,94815491357202;0,12995375302917722
639,1630901287554;20,852703394352485;0,2852547403939454
643,0257510729614;20,813595984471746;0,3671978968377232
646,8884120171674;20,77316642892775;-0,02039933568145358
650,7510729613733;20,628787921132037;0,5370664159670113
654,6137339055794;20,63021317074336;-0,7472474517642347
658,4763948497854;20,498317349289692;0,4473551675918763
662,3390557939914;20,483398426690524;0,39846344018670266
666,2017167381974;20,474858755699316;0,2344845177200483
670,0643776824035;20,499408747409777;0,5468108428209284
673,9270386266094;20,379195998047365;0,12340409572273003
677,7896995708154;20,417168947848413;0,13832367831810188
681,6523605150214;20,16281205779965;-0,24838624711046364
685,5150214592275;20,214135376819932;0,20336296162025036
689,3776824034335;20,135749025741184;0,04023345475788531
693,2403433476395;20,124775570799862;-0,07530714335825195
697,1030042918454;19,939316680633315;0,602503468809843
700,0;20,03564036475069;-0,4459755529685031